# Observed Wavelength Air (nm)  	 
#				Rel.  Int.  (?) 
350.12154   	2000  	
351.07207   	500  	
351.51900   	2000  	
352.04714   	10000  	
356.29551   	150  	
359.35263   	5000  	
359.36385   	3000  	
360.01694   	1000  	
360.91787   	500  	
363.36643   	1000  	
368.22421   	1000  	
368.57351   	1000  	
370.12247   	400  	
375.42148   	500  	
376.5819    	50
376.8047    	50
376.9449    	70
376.9654    	50
388.2698    	20
388.7134    	10
388.9427    	50
389.9723    	20
394.3540    	20  	
398.4065    	20  	
398.4253    	70  	
399.5298    	10  	
399.5721    	10  	
399.8594    	10  	
399.9263    	10  	
401.3752    	10  	
401.3995    	20  	
402.0015    	20  	
403.7262    	50  	
403.7615    	150  	
403.7696    	50  	
404.2327    	100  	
404.2642    	500  	
404.5662    	20  	
406.4036    	500  	
406.4829    	150  	
406.8835    	300  	
406.9243    	300  	
406.9389    	50  	
407.9359    	20  	
408.0148    	500  	
411.1882    	10  	
411.2100    	150  	
411.2694    	200  	
411.2865    	100  	
412.6941    	20  	
412.8072    	300  	
413.0512    	200  	
413.10613   	700  	
416.48079   	500  	
416.6091    	300  	
417.3966    	20  	
417.43667   	700  	
417.52197   	600  	
417.5488    	400  	
419.6415    	150  	
419.81018   	700  	
420.3270    	20
420.3270    	20
420.3270    	20
423.2323    	10  	
424.9538    	20  	
425.2418    	20  	
425.2775    	20  	
425.6498    	20
425.6498    	20
425.9739    	10  	
426.2479    	20  	
426.7286    	10  	
426.7724    	50  	
426.80086   	700  	
426.97223   	700  	
427.02252   	500  	
427.46617   	500  	
427.5167    	10  	
427.55590   	700  	
427.8850    	50  	
427.9279    	150  	
428.3242    	100  	
428.8541    	50  	
428.9799    	20  	
429.1976    	20
429.1976    	20
429.1976    	20
430.3248    	300  	
430.3695    	10  	
430.3955    	50  	
430.62508   	700  	
431.0130    	20  	
431.4110    	10  	
431.4695    	300  	
431.6008    	150  	
431.8834    	50  	
431.9511    	10  	
432.1492    	20  	
432.7265    	100  	
433.41267   	700  	
433.62268   	500  	
433.8200    	20  	
434.0256    	20  	
434.0420    	20  	
434.5479    	20
434.5479    	20
434.5762    	10  	
434.6036    	150  	
435.7298    	20  	
435.7918    	50  	
435.8816    	20  	
436.2690    	300  	
436.3228    	20  	
436.35240   	700  	
436.5705    	10  	
437.1796    	20  	
437.2157    	300  	
437.4997    	20
437.4997    	20
437.7754    	20  	
437.7754    	20
438.12200   	300  	
439.4370    	150
439.4370    	150
439.4370    	150
439.4773    	150  	
439.5008    	10  	
439.5306    	10  	
439.55560   	500  	
439.5969    	10  	
439.7175    	10  	
439.8136    	50  	
440.2374    	20  	
440.2580    	10  	
440.2985    	10  	
440.5582    	20  	
440.9620    	200  	
441.2285    	200  	
441.3561    	150  	
441.5141    	50  	
441.6817    	500  	
442.0558    	10  	
442.15553   	500  	
442.25205   	3000  	
442.48065   	3000  	
442.54000   	1500  	
442.7755    	300  	
442.7981    	150  	
442.9410    	10  	
443.25166   	200  	
443.3398    	100  	
443.37239   	700  	
443.5094    	50  	
444.0363    	150
444.0363    	150
444.0812    	20  	
444.0890    	10  	
444.4978    	300  	
444.5671    	10  	
444.6538    	10  	
445.2983    	150  	
445.3253    	50  	
445.3324    	20  	
445.3528    	10  	
445.4285    	50  	
445.5564    	150  	
445.6380    	10  	
446.01750   	1000  	
446.2856    	20  	
446.56544   	500  	
446.6045    	50  	
446.6503    	20  	
446.68120   	700  	
446.7491    	10  	
447.0971    	50
447.0971    	50
447.2246    	10
447.2246    	10
447.5131    	50  	
447.56560   	1000  	
448.0823    	150  	
448.31900   	1500  	
448.80926   	3000  	
449.17716   	800  	
449.1838    	500  	
449.2132    	50  	
449.2412    	300  	
449.2689    	150  	
449.3108    	50  	
449.3699    	500  	
449.9000    	20  	
449.9843    	50
449.9843    	50
450.01820   	500  	
451.0170    	150  	
451.1509    	200
451.1509    	200
451.4891    	700  	
451.5022    	20  	
451.5411    	300  	
451.6936    	500  	
451.77360   	1000  	
452.57640   	700  	
452.6177    	500  	
452.6685    	150
452.6685    	150
452.7725    	150  	
452.7973    	10  	
452.9476    	300  	
453.2395    	10  	
453.63003   	1500  	
453.76768   	3000  	
453.77545   	10000  	
453.83026   	3000  	
453.9168    	500  	
454.03801   	500  	
454.4502    	500  	
454.5729    	10  	
454.7218    	100  	
454.7728    	150  	
455.0640    	10  	
455.25980   	300  	
455.4415    	100  	
455.4561    	50  	
455.4824    	400  	
455.5392    	300  	
455.6698    	20  	
456.2449    	10  	
456.58880   	600  	
456.6830    	400  	
456.7139    	150  	
456.7845    	100  	
457.30609   	50  	
457.3557    	500  	
457.3898    	300  	
457.50620   	3000  	
457.5858    	200  	
458.20350   	1500  	
458.2105    	150  	
458.24521   	1500  	
458.2556    	150  	
458.2980    	50  	
458.5876    	100  	
458.6145    	20  	
459.3243    	500  	
459.5249    	500  	
460.4095    	150  	
460.4680    	10  	
460.4938    	50  	
460.9365    	300  	
460.99100   	1500  	
461.43910   	1000  	
461.6911    	50  	
461.78370   	700  	
462.7799    	20  	
462.83113   	1500  	
462.8460    	300  	
463.61250   	700  	
463.66362   	700  	
463.6974    	500  	
463.9591    	300  	
464.0443    	700  	
464.3182    	50  	
464.3931    	20  	
464.4833    	400  	
464.54180   	3000  	
464.5885    	10  	
464.99040   	700  	
465.2101    	300  	
465.3699    	500  	
465.63936   	3000  	
466.11054   	1500  	
466.3092    	400  	
466.3518    	200  	
466.6654    	500  	
466.73643   	1000  	
467.08840   	700  	
467.82180   	3000  	
467.86107   	500  	
467.91350   	1500  	
468.03670   	1000  	
468.1200    	500  	
468.1930    	200  	
468.2146    	200  	
468.2910    	100  	
468.3238    	50  	
468.3764    	300  	
468.76710   	1000  	
468.8191    	20  	
469.1580    	150  	
469.5363    	200  	
469.6943    	50  	
470.0469    	50  	
470.25305   	1500  	
470.43949   	15000  	
470.88594   	12000  	
471.00650   	10000  	
471.04881   	300  	
471.20633   	15000  	
471.21406   	150
471.21406   	150
471.2800    	100  	
471.43397   	700  	
471.51248   	300  	
471.52580   	300  	
471.53440   	15000  	
471.76085   	700  	
472.15337   	700  	
472.2150    	50  	
472.2714    	150  	
472.3810    	700
472.3810    	700
472.4162    	50  	
472.51450   	700  	
474.95754   	3000  	
475.06826   	300  	
475.1802    	300  	
475.27320   	5000  	
475.3123    	10  	
475.4440    	1000  	
475.87280   	1500  	
478.03380   	3000  	
478.0884    	300  	
478.1239    	20  	
478.4022    	20  	
478.89258   	10000  	
478.95982   	1000  	
479.02195   	5000  	
479.0728    	300  	
480.01110   	150  	
480.1076    	20  	
480.2363    	100  	
480.3225    	10  	
480.9500    	100  	
481.00640   	1500  	
481.06392   	1000  	
481.4338    	500  	
481.6900    	10  	
481.76386   	3000  	
481.87847   	1500  	
481.9937    	700  	
482.19218   	3000  	
482.31725   	1000  	
482.3370    	500  	
482.5529    	500  	
482.73380   	10000  	
482.75870   	3000  	
482.9288    	50  	
483.73139   	5000  	
484.2566    	100  	
484.2941    	500  	
484.5145    	150  	
484.5767    	50  	
484.9530    	300  	
485.1501    	600  	
485.26550   	1000  	
485.9604    	150  	
486.30810   	1000  	
486.43729   	300  	
486.55065   	1000  	
486.64760   	800  	
486.70189   	700  	
486.82766   	700  	
488.3403    	150  	
488.49170   	10000  	
488.50971   	1000  	
488.8365    	50  	
489.20900   	5000  	
489.2228    	100  	
489.7924    	700  	
489.9013    	500  	
492.82350   	700  	
493.0944    	500  	
493.90410   	1000  	
494.49870   	1000  	
495.53905   	1500  	
495.70335   	10000  	
495.71220   	1500  	
497.35555   	1000  	
497.4760    	500  	
497.5961    	100  	
497.9625    	50  	
499.49300   	1500  	
499.6209    	20  	
499.7482    	150  	
499.8502    	100  	
500.0395    	30  	
500.3561    	20  	
500.51587   	5000  	
500.53467   	500  	
501.10030   	250  	
501.5187    	50  	
502.28700   	250  	
503.13484   	2500  	
503.15087   	20  	
503.60016   	350  	
503.75927   	30  	
503.77512   	5000  	
504.1598    	10  	
504.2853    	150  	
504.5816    	150  	
504.6608    	30  	
505.29443   	250  	
505.9150    	20  	
507.40459   	30  	
507.42007   	350  	
507.65971   	350  	
507.87693   	150  	
508.03830   	1500  	
508.1360    	150  	
508.39773   	250  	
509.0321    	80  	
509.90522   	250  	
510.47011   	350  	
511.36724   	750  	
511.65032   	1500  	
511.70246   	350  	
512.05059   	250  	
512.1866    	20  	
512.22565   	1500  	
512.23613   	1500  	
512.8280    	20  	
514.3265    	50  	
514.49384   	5000  	
514.5011    	5000  	
514.51351   	350  	
515.00842   	350  	
515.19610   	750  	
515.44271   	500  	
515.66672   	500  	
515.89018   	500  	
516.34847   	100  	
518.2320    	20  	
518.86122   	1500  	
519.13223   	350  	
519.31251   	1500  	
519.32240   	1500  	
520.38962   	1500  	
520.6565    	30  	
520.88648   	700  	
521.05672   	500  	
521.43389   	350  	
522.23517   	500  	
523.40271   	500  	
527.40393   	400  	
528.00853   	500  	
529.81891   	1500  	
530.47580   	700  	
531.47851   	300  	
531.68046   	250  	
532.0550    	20  	
532.63960   	750  	
533.06720   	5  	  	
533.07775   	6000  	
533.33083   	500  	
533.5710    	100  	
534.10938   	10000  	
534.2700    	10  	
534.30048   	100  	
534.32834   	6000  	
534.92038   	1500  	
535.3513    	50  	
535.51640   	1500  	
535.53394   	50  	
535.54236   	1500  	
535.8020    	100  	
536.00121   	1500  	
536.04271   	350  	
536.22334   	250  	
536.62169   	250  	
537.23110   	750  	
537.49750   	500  	
538.32457   	250  	
540.05616   	20000  	
541.012     	50  	
541.26490   	2500  	
541.85584   	1500  	
542.0155    	500  	
543.36513   	2500  	
544.7120    	80  	
544.85091   	1500  	
549.44158   	500  	
550.73442   	250  	
551.1176    	30  	
551.1485    	150  	
552.063     	30  	
553.36788   	750  	
553.86510   	500  	
555.90978   	350  	
556.24416   	1500  	
556.27662   	5000  	
556.30531   	750  	
557.60394   	350  	
558.5905    	50  	
558.93472   	500  	
559.115     	80  	
565.25664   	750  	
565.60258   	750  	
565.66588   	5000  	
566.25489   	750  	
568.4647    	250  	
568.98163   	1500  	
571.53409   	350  	
571.88798   	1500  	
571.92248   	5000  	
571.95300   	750  	
574.82985   	5000  	
574.86446   	700  	
576.05885   	700  	
576.40525   	30  	
576.44188   	7000  	
577.03067   	500  	
580.40900   	750  	
580.44496   	5000  	
581.14066   	3000  	
581.66219   	500  	
582.01558   	5000  	
582.89063   	750  	
585.24878   	20000  	
586.84165   	750  	
587.21450   	750  	
587.28275   	5000  	
588.18950   	10000  	
589.83287   	200  	
590.20944   	30  	
590.24623   	500  	
590.27835   	50  	
590.64294   	500  	
591.36330   	2500  	
591.89068   	2500  	
591.90290   	80  	
593.44522   	750  	
593.93154   	500  	
594.48340   	5000  	
596.16228   	700  	
596.54710   	5000  	
596.61790   	350  	
597.46273   	5000  	
597.55343   	6000  	
598.23753   	80  	
598.79074   	1500  	
599.16477   	750  	
600.09275   	1000  	
602.99968   	10000  	
604.2013    	150  	
604.61348   	500  	
606.45359   	500  	
607.43376   	10000  	
609.61630   	3000  	
611.80187   	150  	
612.84498   	1000  	
614.2508    	1000  	
614.30627   	10000  	
615.02985   	1000  	
615.61380   	500  	
616.35937   	10000  	
617.28156   	150  	
617.48829   	700  	
617.52842   	500  	
618.21460   	1500  	
618.31575   	50  	
618.90649   	700  	
619.30663   	500  	
620.29740   	150  	
620.57775   	1000  	
621.38758   	1500  	
621.72812   	10000  	
622.57350   	500  	
624.67294   	1000  	
624.9593    	50  	
625.2732    	20  	
625.87884   	1000  	
626.64952   	10000  	
627.30141   	700  	
627.60327   	500  	
629.37447   	1000  	
630.47893   	1000  	
631.36855   	1500  	
632.81646   	3000  	
633.08894   	1500  	
633.44276   	10000  	
635.18532   	1000  	
636.49963   	1000  	
638.29914   	10000  	
640.1076    	1000  	
640.22480   	20000  	
640.97469   	1500  	
642.17044   	1000  	
644.47118   	1500  	
650.65277   	15000  	
653.28824   	1000  	
659.89528   	10000  	
660.29007   	1000  	
664.00095   	100  	
664.080     	50  	
665.20925   	1500  	
666.6892    	1000  	
667.82766   	5000  	
671.70430   	700  	
672.11342   	20  	
673.80320   	700  	
675.95821   	150  	
692.94672   	100000  
702.40500   	34000  	
703.24128   	85000  	
705.12922   	2200  	
705.91079   	10000  	
706.4762    	80  	
711.23075   	110  	
713.85400   	55  	
717.39380   	77000  	
724.51665   	77000  	
730.48422   	89  	
743.88981   	60000  	
747.24383   	3100  	
748.88712   	32000  	
753.57739   	28000  	
754.40439   	13000  	
762.133     	50  	
772.46233   	60  	
783.30281   	56  	
783.90520   	230  	
783.99855   	7  	  	
792.71172   	300  	
793.69957   	1300  	
794.31805   	7900  	
794.41404   	200  	
802.411     	3  	  	
804.179     	3  	  	
807.606     	1  	  	
808.24576   	5700  	
809.308     	3  	  	
811.85495   	3800  	
812.89110   	1200  	
813.64061   	17000  	
824.86826   	310  	
825.93795   	3300  	
826.60769   	7200  	
826.71166   	990  	
830.03248   	29000  	
830.15570   	1900  	
836.57464   	4600  	
837.63590   	6600  	
837.76070   	76000  	
841.71597   	2700  	
841.84265   	26000  	
846.33569   	3700  	
848.44424   	1300  	
849.53591   	69000  	
